Metasequoia Document
Format Text Ver 1.0

Scene {
	pos -2.3973 -17.8082 3840.0012
	lookat 0.0000 0.0000 0.0000
	head -0.4036
	pich 0.2508
	bank 0.0000
	ortho 0
	zoom2 1.9531
	amb 0.250 0.250 0.250
	dirlights 1 {
		light {
			dir 0.408 0.408 0.816
			color 1.000 1.000 1.000
		}
	}
}
Material 4 {
	"Bottom_layer" col(0.225 1.000 0.000 1.000) dif(0.800) amb(0.600) emi(0.000) spc(0.000) power(5.00)
	"Core" col(0.000 0.253 0.064 1.000) dif(0.800) amb(0.600) emi(0.000) spc(0.000) power(5.00)
	"Mid_layer" col(0.046 0.426 0.000 1.000) dif(0.800) amb(0.600) emi(0.000) spc(0.000) power(5.00)
	"Top_layer" col(0.105 0.800 0.000 1.000) dif(0.800) amb(0.600) emi(0.000) spc(0.000) power(5.00)
}
Object "bush" {
	visible 15
	locking 0
	shading 1
	facet 59.5
	color 0.898 0.498 0.698
	color_type 0
	vertex 777 {
		-86.4868 75.3566 87.0214
		28.1344 76.0104 116.5800
		90.0717 200.8448 -64.8139
		-1.8477 263.2833 0.8900
		20.0274 27.0027 64.3299
		-110.6397 60.4507 7.0753
		-55.9544 21.7583 -30.9546
		-9.9048 138.1430 138.5152
		82.0113 142.7055 107.7619
		75.5550 139.6897 -102.2518
		115.5386 134.5682 -36.2873
		-76.0852 136.2870 -102.6326
		53.4864 244.9030 40.0667
		-87.6370 52.6074 50.8651
		-67.0953 80.2156 -90.3700
		-117.2837 96.9033 63.3068
		18.3659 103.5785 111.6648
		-71.0727 199.0491 92.0912
		-35.0695 219.0876 85.2585
		-36.0961 264.2068 -4.0909
		24.2191 51.4919 89.7064
		-113.3402 104.8515 -56.7774
		46.6088 106.0238 121.9908
		85.7083 169.5307 -84.3946
		-19.2911 259.6119 29.7860
		17.3137 252.9121 27.7791
		-50.0456 242.6593 -37.4350
		17.9880 240.5309 -68.3785
		9.1551 236.2112 -81.9186
		67.8506 242.6600 0.5189
		7.7195 252.7166 51.4362
		45.8932 229.8515 75.3998
		1.1909 219.4351 96.0370
		-53.6851 243.6803 41.6084
		18.4558 171.1962 -122.8248
		40.1868 134.3524 -117.5562
		118.4202 164.1156 -7.8023
		101.2549 135.3897 -74.6310
		83.7034 101.7615 -89.5864
		78.9307 93.3530 90.6602
		-20.3502 100.4138 121.2880
		-123.2505 101.3935 30.0602
		-110.2921 98.9428 -19.5730
		-20.5582 14.1291 -49.3010
		48.5816 37.7550 -57.0642
		-87.1752 48.3831 -27.1899
		-60.5237 22.8178 -0.9934
		-87.3246 42.3737 31.7449
		-67.8495 91.0592 -104.3680
		-103.1812 133.5244 -78.1879
		6.6039 219.7075 -93.2486
		14.9826 226.3694 81.7411
		51.2182 160.7574 -113.8427
		103.5113 194.4807 -31.9586
		111.3178 162.8776 -63.8342
		105.0333 102.7381 -69.0068
		-65.4362 29.4623 -0.7106
		-28.9714 7.5559 -10.3194
		-3.3822 66.0253 109.4748
		20.2454 26.8784 64.7458
		22.2699 26.9480 64.5549
		22.5582 26.7709 58.0147
		3.1959 11.3625 29.8997
		-2.5179 10.7871 -1.5593
		-43.6709 28.9259 47.0862
		-54.4803 26.2283 40.2733
		-51.8768 24.2097 37.3049
		-36.3486 67.3656 101.4033
		33.7190 81.4777 109.7580
		-109.4951 68.1376 -10.2495
		-108.5699 69.2588 1.6071
		-109.7658 68.7167 0.1463
		-112.1395 60.7459 0.1719
		-105.6002 74.6940 39.4666
		-51.1558 24.7300 -44.5988
		-50.2271 29.8286 -29.0417
		-55.3681 27.4359 -39.0084
		-55.3522 27.1743 -38.4589
		-88.9812 53.4410 -58.5511
		-72.4283 50.5409 -68.2883
		-85.4171 56.9217 -47.4057
		-92.7322 79.9446 -67.9367
		-93.8323 77.6763 -64.5926
		66.9894 20.6439 5.9250
		32.2438 3.2104 5.7761
		102.9731 69.5840 26.5965
		118.1387 82.1394 -3.6607
		115.7804 83.8364 10.2654
		18.0127 28.2625 -61.6982
		89.3451 67.3264 -65.4203
		83.6677 70.8657 -65.5598
		93.8764 71.4705 -65.7129
		54.3928 69.1742 -89.6858
		-34.8067 64.7548 -105.4824
		-63.3067 80.3973 -86.3333
		-123.8410 131.3025 36.7402
		-127.1227 133.9875 44.0818
		-117.4453 136.9510 42.7988
		-125.4720 134.6529 36.0133
		-125.2688 140.2164 -40.7907
		-120.3387 135.8218 -37.1629
		-110.1028 202.8324 -5.6628
		-116.3554 193.7675 0.4370
		-3.0709 136.9072 134.2292
		6.6193 132.3989 130.0082
		0.4690 138.2544 126.2466
		-73.1790 135.6987 100.2071
		-65.5474 168.2951 106.9772
		-49.2084 165.5111 108.3731
		-36.7560 192.9720 111.7977
		-35.2271 196.1247 111.4535
		-33.9273 185.3110 105.4954
		120.8942 139.2768 39.9630
		71.1922 134.4650 98.4483
		68.0077 132.7584 -105.0129
		85.4561 131.1109 -99.3787
		77.0527 131.9501 -104.4253
		114.2767 140.7288 -29.6963
		116.8201 137.8239 -38.9648
		115.8847 135.8188 -35.3856
		113.7667 136.9035 -43.0640
		112.9314 166.4123 -49.3933
		106.3045 169.6284 -50.4917
		96.3020 202.9813 -73.1259
		90.2827 195.5305 -77.6869
		98.2949 189.7026 -68.0909
		-70.1047 135.7374 -99.6937
		-73.3191 131.7004 -113.8518
		-76.5728 136.0023 -104.0077
		-74.3393 142.6572 -99.8500
		-99.3556 96.7713 -86.7847
		-89.6735 104.2670 -90.5174
		5.0260 136.3009 -124.3393
		-25.2189 161.3038 -119.9196
		-60.7728 208.5090 93.3848
		32.7465 203.2740 103.9863
		35.3461 201.2505 106.6469
		75.4147 189.5366 92.0356
		107.4747 202.8567 2.7432
		103.2459 197.1611 0.8665
		112.7456 202.5437 -2.2035
		107.5846 202.8438 1.4650
		105.4557 197.6418 -44.3296
		101.8237 199.1320 -34.4186
		94.7561 202.9516 -40.7517
		34.5666 200.2510 -103.7414
		43.0807 201.5780 -109.4123
		32.1880 205.0579 -104.7719
		1.8729 192.1597 -114.5454
		-98.7223 194.8670 -63.7825
		-87.6047 203.8365 -65.3997
		-19.9380 244.7319 67.6791
		-24.0502 247.6233 59.5886
		-32.8250 240.1724 62.6038
		-15.7608 237.1840 64.1495
		-25.6247 226.8120 98.9114
		-36.8738 218.5618 86.3043
		-70.1966 246.1431 8.2749
		-68.3008 245.0196 -1.4064
		-34.8251 260.2421 -1.0837
		-0.9942 264.6949 -0.1733
		56.7164 253.4648 33.4703
		56.5191 239.8789 35.1421
		53.3067 244.7755 -39.4833
		54.5414 244.8653 -38.5300
		-21.6399 244.3584 -63.4305
		-20.3607 240.2830 -52.6192
		-13.1114 244.0217 -58.1931
		-36.0106 210.2877 -88.1019
		24.4096 44.2459 93.1477
		38.0776 50.7743 88.5593
		-108.6349 66.5127 -38.3184
		-117.6112 75.5743 -33.5619
		94.7524 51.2262 1.1416
		102.1337 55.9365 -7.7869
		54.4482 59.3399 82.5112
		97.6761 64.4411 -34.9705
		-133.9663 163.2555 19.8888
		-119.8100 174.7809 22.5621
		-109.4263 94.0586 -56.3923
		-29.2021 165.5332 120.6727
		-15.1272 170.0711 112.9574
		80.3564 168.2987 -85.3393
		127.2246 108.4321 -9.5941
		-68.5479 174.8562 -105.4885
		-108.1955 201.6538 33.0325
		-110.9006 189.0712 35.5740
		107.1756 198.1641 40.7150
		67.7030 213.9244 -88.4488
		-22.8200 265.6556 30.9988
		-14.0649 262.1582 32.4599
		-11.4445 263.2421 30.5147
		-95.7272 220.7522 7.8691
		24.9700 261.0513 -11.0988
		-10.4876 260.7073 -28.2476
		-76.2728 231.4517 -24.9126
		-69.6857 226.9690 -73.0075
		-62.7679 234.4469 -74.5031
		48.6149 225.7163 -73.3037
		39.7888 222.5487 -70.8406
		87.2557 221.2669 -26.2873
		82.6671 217.8641 20.7635
		18.9788 252.4222 62.4615
		51.7637 218.9734 80.3965
		11.5888 235.0328 78.9151
		-46.3010 251.5345 27.9337
		-83.9822 225.3143 29.4953
		-110.8748 142.3345 -68.6068
		-79.4921 175.3397 -76.3195
		-99.0133 177.3534 -86.1890
		21.2833 164.9953 -117.2113
		41.8998 144.0192 -127.1183
		49.8809 166.4055 -113.8835
		54.2280 172.8520 -111.1871
		120.1838 171.6725 -9.1908
		135.5643 141.3987 1.5499
		130.3747 140.0349 1.7049
		117.0281 178.5579 30.7011
		55.9406 163.8168 108.7290
		40.3594 124.8284 127.5374
		48.1551 130.4845 124.4045
		-103.6393 125.0829 74.8927
		-114.7580 170.0199 60.2356
		-110.5159 170.9055 55.6102
		-40.7834 131.2244 -121.0419
		-57.5186 99.7826 -110.0199
		74.1938 99.5477 -92.7180
		73.5435 98.8494 -92.7406
		102.4409 108.7264 -60.0440
		111.8219 129.0084 77.8521
		-34.8554 144.9016 123.7227
		-40.4933 132.9298 125.0183
		-24.5546 92.2626 126.0878
		-53.1298 112.7372 113.9720
		-127.8219 135.3093 0.2031
		-122.7118 105.5772 -10.9899
		-60.2011 46.8053 -77.2291
		-57.1043 38.8146 -78.0764
		-20.8531 29.4129 -63.4658
		-12.0029 35.0489 -81.2376
		87.2195 49.3063 -42.0207
		76.4615 51.5854 -33.2232
		56.8050 24.5924 26.8800
		61.8008 34.0889 59.0631
		-83.1083 52.4591 -26.5557
		-88.3653 47.2614 -11.8848
		-93.8497 47.3278 -25.0428
		-78.4562 39.2926 13.5654
		-82.1674 39.9337 9.8918
		-58.7104 22.3205 -2.0355
		-8.1651 46.9702 87.1599
		-25.7963 26.3920 55.5591
		-27.9526 29.9433 61.1893
		-54.0864 50.7135 83.1947
		-87.7897 50.6274 51.4586
		13.1758 5.6230 34.0103
		17.4012 13.0826 -29.5837
		121.6810 98.7830 25.2228
		49.8849 107.4238 -119.7165
		-108.2475 109.4164 -61.7219
		-96.2315 108.0060 -77.5226
		81.6422 223.1834 -53.3868
		-100.7964 206.2393 -29.9921
		-42.9109 246.1251 -27.6915
		-74.0263 231.6499 -39.0714
		11.4626 255.5945 -53.6586
		86.6545 224.0571 27.5085
		28.8571 260.2051 25.1154
		12.7608 254.0626 52.3376
		17.6317 246.1537 68.0474
		-5.5807 203.7012 109.9541
		-45.0074 259.1101 32.2536
		-101.2638 145.0064 -72.9079
		77.4960 174.6418 -91.3144
		110.0108 174.0168 -50.6173
		118.7349 176.3018 -32.6018
		118.4818 168.8376 -14.0346
		52.5791 161.4267 108.8229
		8.2046 176.2578 117.5241
		-108.2101 143.6666 80.7737
		-39.0477 124.6181 -125.0903
		103.2563 146.5342 -76.3730
		104.0599 126.3204 -72.9730
		110.3627 163.8661 71.1004
		-40.8452 128.6294 117.1565
		-129.3863 167.6482 7.2061
		-119.0272 95.6783 -25.9605
		-56.9715 44.8974 -76.4509
		-82.6418 39.4144 17.7623
		-23.1983 28.6980 63.4260
		-60.8977 47.0516 76.3381
		-101.4019 76.3405 70.9923
		-31.2150 191.9091 110.7267
		0.2965 272.5836 -0.4811
		18.8530 28.4050 70.7592
		70.4658 19.6793 -1.5962
		-131.4961 136.2066 -39.7730
		1.2199 133.0932 130.9777
		-81.5503 127.2100 117.1410
		78.1069 130.2569 -100.6176
		122.7747 137.8699 -38.9008
		120.6594 210.1067 -2.1318
		-88.3152 208.7111 -60.7247
		52.4855 253.1908 -46.3578
		-66.3657 167.9966 121.1283
		64.3504 101.2714 -110.5105
		-43.5147 272.3851 -6.6201
		82.5490 222.5508 62.7120
		-32.9609 162.5235 135.1822
		-103.6479 104.3704 87.2218
		124.8712 108.3295 -18.9403
		-62.2557 211.9104 -93.3880
		-21.2374 267.5775 29.0138
		-21.0777 271.8754 -32.0084
		-55.7151 259.5686 -28.0902
		12.4422 248.6340 -51.4199
		87.8970 228.8826 30.6113
		-59.3113 249.4124 34.4341
		-83.5746 182.9378 -91.2616
		28.8979 166.4125 -121.0200
		127.9541 172.8229 -20.7556
		129.7189 165.9612 25.9234
		109.4141 94.3186 -47.6570
		114.6953 98.0391 56.4070
		-70.9307 93.1808 106.3190
		-138.4360 139.0957 -4.3671
		-15.5409 25.9566 53.8088
		-20.3058 91.6044 125.9008
		138.5698 125.8985 1.4368
		49.5750 233.1164 84.9120
		-71.3408 235.2341 -58.0002
		18.9908 266.5494 -31.3696
		34.3910 238.2391 -84.5075
		132.2043 166.7837 13.6917
		120.2069 196.7722 40.3765
		-129.0369 105.2209 4.4833
		-57.8783 21.1469 41.9647
		-61.0727 25.2615 42.5617
		-60.1681 25.7665 42.1673
		-91.6759 47.2675 54.3728
		-111.3439 75.4821 80.6452
		-93.9063 74.7382 68.4762
		-2.0825 58.9251 112.6280
		45.5758 70.1739 118.2310
		37.3260 74.4065 116.1591
		-117.5079 61.5175 -1.1114
		-59.5151 19.8882 -42.0863
		71.3099 20.9692 2.0077
		69.8116 20.7951 1.3080
		89.9229 62.8097 68.8417
		101.6175 69.8431 74.0329
		91.4493 70.2672 60.0144
		90.9642 63.9864 71.0890
		113.0853 75.5361 34.4101
		109.4098 60.7094 27.7052
		122.1301 75.1349 -5.2970
		10.1245 17.4066 -65.2511
		-34.3678 60.5985 -111.4257
		-37.6085 63.7010 -108.6981
		-71.6539 67.6289 -94.3441
		-114.9092 106.7830 57.1678
		-124.4767 132.8352 -32.7530
		-117.3281 131.2328 -43.1614
		-139.2009 168.3493 -17.3434
		-122.4437 196.8637 -0.6678
		-113.3461 194.0612 2.6840
		-2.2687 136.8646 136.7376
		20.2586 102.4559 130.8163
		-77.0770 131.0249 114.1539
		-83.1979 122.1799 113.2500
		-79.5389 134.7756 110.7238
		-50.2790 169.5509 128.3177
		138.5474 102.3537 22.1568
		81.2420 134.3288 -113.1481
		71.0431 136.9207 -109.9020
		78.7913 136.0693 -115.8078
		66.6470 97.8373 -110.2438
		125.2928 135.9453 -44.7433
		123.9474 134.6537 -47.5557
		-84.3753 124.9352 -115.5429
		-8.0455 141.3916 -130.5665
		1.6658 140.5531 -138.5716
		-32.9884 162.1177 -121.3594
		115.0919 204.3014 -0.7551
		42.6834 209.3910 -105.2609
		38.5011 208.4692 -111.9815
		37.0238 197.0215 -111.1439
		26.4755 209.1173 -105.8810
		-3.6936 204.2707 -116.9260
		-91.6642 207.0285 -67.1905
		-91.3585 206.8410 -74.1211
		-107.5921 214.7585 -29.1089
		-121.8786 202.0849 -32.4333
		-72.6705 251.1962 0.2290
		-2.6118 276.0389 -1.6844
		54.9754 253.0465 42.1713
		57.6444 250.3143 42.6446
		85.3482 223.1170 57.6224
		50.2820 255.7511 -42.8527
		67.6678 259.0966 -44.5244
		-32.1608 245.0449 -60.3467
		-21.7437 246.0507 -66.5756
		28.7265 44.2755 94.8547
		-33.9764 0.8857 13.1210
		-71.4531 65.5192 96.7020
		-121.2289 72.0617 -40.9609
		-23.0574 4.5172 -24.1869
		103.0598 47.8859 -12.3194
		64.9732 79.0633 93.2781
		60.4812 57.7525 94.3035
		30.6838 39.8694 -101.6812
		3.1414 77.7606 -116.9156
		-94.3811 102.4779 94.4744
		83.4085 178.0366 -93.8930
		129.9683 101.4514 -30.2181
		-60.5155 173.1418 -120.8285
		-113.1701 197.6635 39.5995
		72.1117 201.3676 -89.7339
		-101.9739 234.5249 8.3136
		-98.1454 230.2598 12.7307
		31.6493 271.5971 -24.5243
		-3.5255 259.5243 -39.3102
		-55.5838 248.2155 -25.9689
		-62.1976 231.5354 -70.4424
		3.5101 238.6279 -80.9885
		54.4657 260.7831 1.1010
		56.8873 258.7967 -1.7212
		89.1474 238.2969 -15.9177
		-97.0569 227.2130 37.5408
		-107.9536 178.7342 -46.3919
		-117.2903 173.2418 -57.9607
		-110.6604 132.8369 -81.6676
		25.1266 162.9560 -123.0993
		43.1887 129.8986 -131.2006
		64.4818 182.5858 -113.8117
		57.4990 167.9408 -118.6539
		132.9974 173.9263 -17.6471
		129.3401 149.1042 5.8409
		-92.5508 162.2362 86.6132
		-90.0726 172.7298 95.0388
		-108.4267 145.8794 80.6564
		-39.1568 145.4536 -130.3859
		-41.0365 126.2708 -134.6547
		-22.9894 106.7180 -124.9403
		106.2716 135.8914 -72.8929
		98.6114 95.2566 -90.3915
		101.8856 105.6649 -87.4117
		118.0788 97.9212 60.3952
		97.7083 104.6446 87.0556
		93.7351 98.7534 89.0390
		-40.9464 134.8660 127.6852
		-41.2531 135.6071 133.8708
		-29.9610 105.9640 123.3461
		-126.6693 90.3418 -25.3149
		-130.9758 96.2160 -15.1158
		-19.7609 18.9178 -58.0335
		59.8232 40.4924 -77.0829
		49.3447 15.4706 -35.7233
		76.6273 40.2078 -30.9336
		76.1075 38.0149 40.8338
		94.9792 38.6963 37.6456
		55.4201 21.1456 40.0274
		-1.0042 33.3291 104.1347
		-21.6912 7.1854 49.3689
		-18.4207 20.8785 68.0998
		-42.0268 28.4557 77.5616
		29.9813 8.4903 -5.9676
		5.6798 93.2597 135.7633
		112.3147 76.5667 29.6780
		-97.9104 109.0601 95.6164
		-7.3181 215.5776 -112.1702
		-31.9179 273.2553 -20.0558
		-76.0278 240.0491 -38.3999
		55.0356 233.8810 -76.8064
		-113.3420 167.1182 -67.4939
		-15.1564 175.9951 -127.6673
		10.5609 175.7132 -129.8362
		-66.1077 175.9254 113.0421
		-67.0341 79.4027 100.2461
		-63.8713 38.8968 -78.7505
		-55.1292 40.2015 83.0465
		-74.5160 51.0546 66.1411
		-2.8808 -10.6183 -0.8036
		-111.1277 72.0044 91.7121
		32.5106 66.9714 134.0434
		138.6261 68.5836 -8.8354
		48.0299 64.2722 -131.7078
		114.1372 210.8152 82.4719
		20.5496 19.1779 76.7772
		76.5857 9.7043 -1.7790
		19.3872 8.9854 -58.9162
		-40.6739 56.9961 -118.1313
		-140.7089 135.7921 45.8206
		-142.6843 136.2180 -43.2276
		84.5681 126.4505 127.1341
		32.0865 215.4043 -115.8729
		-95.4129 216.4513 -75.9526
		-2.0844 63.5581 122.9146
		-111.2815 50.7328 39.7820
		38.5103 -2.2288 -1.1709
		0.5123 -4.5236 -24.1161
		94.5370 170.7323 105.0235
		1.4345 209.1458 -120.0271
		-43.3438 239.0867 98.1959
		20.2651 41.0630 107.4774
		-32.6430 -8.5686 24.4917
		117.9475 34.8698 1.9516
		34.0333 34.1279 -99.2870
		2.5289 61.6113 -127.2757
		-137.5537 107.5251 -73.7812
		123.9369 165.3449 78.5498
		59.2274 88.5899 134.4268
		82.7392 218.4096 -97.3778
		-73.3732 214.0761 -105.0452
		13.5894 258.2804 -55.8725
		7.3742 241.9005 87.2388
		-92.1764 182.6307 -103.3950
		73.9575 182.0361 -117.6483
		148.3517 129.5923 5.2169
		-54.6924 132.9032 -139.2776
		107.3213 138.0302 -80.9143
		132.0605 94.4872 -68.2822
		117.8838 124.5110 86.8112
		85.9974 82.0131 102.0536
		-24.6485 100.4244 134.9297
		-138.2816 92.9760 -33.4373
		-59.2070 24.0601 -91.8927
		-21.8006 -5.8082 -54.4876
		-7.4620 34.0951 -109.7251
		67.1453 23.3920 -64.5936
		-70.9615 89.8124 -118.8497
		48.1024 124.4003 -136.0818
		-119.9364 125.6280 -94.2247
		60.9129 234.6594 92.4517
		-103.0323 237.5734 -32.0947
		-50.2991 281.0874 -31.5064
		34.3467 251.5978 -86.5944
		2.7324 233.3591 120.2390
		-36.6005 96.2783 -134.7415
		120.2978 101.3803 -71.7365
		130.7993 92.5243 -29.8271
		-15.9065 18.9073 -92.7831
		66.9423 51.6820 -100.3438
		115.2798 52.9308 34.9576
		28.1169 4.9173 78.4133
		0.4959 -7.2484 16.0785
		-58.9391 2.1184 51.6353
		-64.7689 13.4855 51.6624
		-65.4389 5.6758 55.7828
		-92.2955 37.1235 64.7616
		-88.6549 36.0131 67.5301
		-99.3188 70.8148 82.3267
		-40.3994 56.9855 120.3036
		-38.6520 59.0140 117.4017
		4.4322 58.4703 132.1984
		-125.3591 59.1208 0.0330
		-132.8740 71.1181 0.4089
		-128.8272 63.5881 0.6812
		-127.0496 71.3075 40.2290
		-59.9208 14.6284 -46.4278
		-98.4874 64.5264 -75.4555
		77.0656 10.1293 0.1291
		75.1636 11.2405 0.4067
		74.4360 11.4817 -2.6573
		35.7800 -10.4696 -1.2526
		101.3009 57.7027 73.9327
		111.0644 58.1737 78.2383
		122.8684 54.9866 32.6085
		127.6611 68.2806 -1.7079
		22.0182 12.7187 -71.2446
		37.4143 11.9220 -75.7039
		21.7273 11.0582 -61.9708
		100.1610 68.7210 -63.0356
		69.4430 52.1928 -98.7637
		43.8622 69.3518 -129.8919
		-38.5676 58.9275 -116.9406
		-141.1473 133.5791 46.1793
		-143.5620 133.9113 46.5857
		-118.6430 105.1568 71.8980
		-141.9048 142.0077 -53.9626
		-142.4316 135.1887 -41.9389
		-142.7376 136.6551 -46.7059
		-142.1511 165.5470 -21.7903
		-145.2583 198.6509 2.7028
		-87.5433 136.1999 117.7476
		-90.7836 141.5142 112.1541
		-63.6011 167.9014 125.8630
		130.3746 147.2640 46.7207
		137.9210 134.8792 46.4971
		139.6476 145.4520 37.8279
		143.0246 100.8638 14.2082
		91.4134 134.4789 118.6572
		91.4588 146.0842 119.4562
		86.4966 142.9485 116.6807
		112.0482 198.7686 87.7103
		101.8030 206.8127 90.5559
		119.8095 197.0289 76.4098
		77.1225 134.7247 -115.5708
		86.0773 135.8629 -119.8459
		137.5992 136.9324 -44.2569
		134.9500 132.2376 -48.0256
		139.5669 135.9657 -45.1422
		110.0420 196.8032 -73.0180
		-88.5174 135.0943 -117.6203
		-90.2470 120.9892 -115.2401
		-101.0211 101.1981 -100.4349
		-96.4282 97.1102 -103.5874
		-6.0492 147.6801 -151.1587
		4.3201 134.4717 -151.6009
		1.0086 133.1258 -144.7252
		-16.2098 180.0486 -141.8528
		-24.8801 178.2551 -134.0459
		-51.6887 198.7501 -121.2043
		-43.3705 203.7543 -122.8681
		-99.5188 211.5595 69.7761
		29.3895 214.3737 118.7827
		74.0486 210.4003 98.2284
		126.4511 213.0415 11.7178
		134.1664 222.6273 -1.1824
		111.8332 216.3134 -37.3962
		40.5799 218.3175 -122.3828
		4.3869 204.5214 -127.9370
		-99.8928 212.8865 -75.1168
		-103.6881 210.4127 -59.6178
		-130.8100 208.2891 -30.8008
		-23.7676 261.3884 71.4509
		-80.1223 260.1613 -5.8058
		-39.8194 278.5222 1.3871
		12.1337 288.5480 -6.5697
		61.1261 260.7334 46.9590
		62.0007 261.5612 45.7105
		89.5174 230.7659 64.2928
		101.2851 235.1975 58.0305
		65.7926 262.4966 -48.0321
		-44.1204 235.9943 -101.3560
		29.4379 34.3332 114.1648
		-31.2800 -7.3290 23.1965
		-76.0661 61.2630 101.9672
		-118.3030 61.0595 -49.7061
		-37.6623 -5.4389 -13.7511
		111.8010 39.6024 -8.3304
		108.8213 40.3358 -6.0552
		77.0208 70.8497 108.7838
		-144.4924 174.2580 22.6371
		-131.8451 96.0893 -63.6666
		130.8187 168.9696 62.5149
		101.6759 175.3365 -100.5141
		95.7061 168.7362 -91.3269
		133.7298 104.4135 -23.4689
		11.5652 92.7894 -133.6137
		-116.0787 215.0781 33.9696
		117.5009 208.8722 40.2873
		114.4830 206.7442 34.5987
		77.4475 202.4145 -98.1965
		-112.8393 237.4697 0.2558
		-103.9590 234.4451 -4.8869
		-11.3295 279.5623 -34.4429
		-100.3572 228.8925 -28.4424
		-66.8810 246.7443 -73.7029
		-4.7063 235.7456 -105.6619
		102.1175 239.9989 16.9728
		25.5797 269.9244 75.4560
		39.5709 245.8248 84.0646
		-94.5458 252.1917 39.9411
		-129.1877 182.7980 -52.3984
		-119.5314 136.2558 -82.9096
		-99.9472 180.0150 -103.9117
		65.4649 176.9961 -127.0228
		133.1181 170.3071 -10.6924
		147.7718 143.1834 0.7593
		142.3226 168.9802 8.3340
		65.0853 185.0521 134.5550
		69.0132 179.4461 124.7397
		41.7710 142.3577 146.2228
		-98.5300 174.9185 101.8777
		-115.2114 141.3903 82.0572
		-37.3780 125.9689 -146.2313
		123.0042 145.0990 89.7280
		128.3518 90.1955 53.7255
		94.6852 100.5080 113.0082
		98.9627 96.2660 100.9652
		-61.3889 98.4298 134.3680
		-146.9550 146.7710 0.9865
		-140.0526 137.9715 -2.0907
		-137.5434 94.5653 31.2009
		-149.5999 108.3989 16.8388
		-49.9064 27.5853 -81.3816
		-27.6272 -3.8871 -53.1015
		3.9927 28.3004 -91.6854
		65.0430 29.5185 -75.7558
		37.9063 0.5409 -36.2442
		60.0122 -5.7086 -33.2028
		95.6640 27.1895 -42.7691
		92.4870 27.6710 -39.0913
		101.6519 41.3993 37.0572
		51.6341 -0.2966 35.9311
		-93.2248 30.2616 -19.2054
		-99.4680 28.7267 32.0119
		-18.2906 2.1894 53.2768
		-21.6378 -6.4902 56.9651
		35.6261 -5.8602 34.3364
		75.9153 94.8479 -116.9999
		-115.1385 107.7045 79.1043
		144.5349 109.3382 10.8571
		-116.8570 106.5638 -71.2854
		86.5495 239.8915 76.7284
		77.7424 222.1743 95.5030
		-81.7354 253.2490 -44.3579
		-69.8751 215.2656 -99.3931
		88.4003 249.9532 -15.0077
		24.2800 276.4561 23.2378
		-116.0255 215.1794 32.1565
		-122.6192 171.3881 -73.4458
		-122.1738 155.6500 -75.3419
		48.0244 150.9403 -139.3241
		69.6214 183.1631 -118.7808
		122.4625 177.3306 -47.3467
		141.0512 180.3900 -30.6654
		131.2857 176.0915 53.9027
		92.0522 182.7221 102.1627
		-70.7671 185.7416 121.1654
		-53.2989 156.0092 -140.8424
		-45.6152 152.0068 149.2230
		-138.9489 91.6794 -33.1200
		-85.1424 38.6041 -71.7986
		-36.4954 20.3511 -88.9132
		41.5526 37.6858 -107.5308
		65.9040 25.2929 -63.6637
		82.9235 25.7144 41.9725
		57.7880 34.9833 83.4139
		-112.4825 51.9167 -43.3568
		0.0195 35.3709 107.1860
		-14.7309 25.9983 90.6525
		-62.7544 31.4775 92.5403
		-85.5200 35.8265 80.0693
		-0.9447 11.1494 0.5367
		-91.3408 80.2050 66.2125
		33.5829 80.2050 106.8033
		110.7908 80.2055 0.5367
		33.5829 80.2050 -105.7300
		-91.3408 80.2050 -65.1392
		-35.4722 191.9422 106.8033
		89.4513 191.9421 66.2125
		89.4513 191.9421 -65.1392
		-35.4722 191.9422 -105.7300
		-112.6801 191.9417 0.5367
		-0.9447 260.9978 0.5367
		19.3499 29.8063 62.9982
		-54.0778 29.8063 39.1397
		-33.7834 70.3962 101.6017
		-107.2111 70.3965 0.5367
		-54.0778 29.8063 -38.0664
		64.7317 29.8066 0.5367
		85.0268 70.3964 62.9984
		19.3499 29.8063 -61.9248
		85.0268 70.3964 -61.9250
		-33.7834 70.3962 -100.5284
		-119.7549 136.0736 39.1398
		-119.7549 136.0736 -38.0665
		-0.9447 136.0736 125.4609
		-74.3733 136.0736 101.6024
		117.8656 136.0736 39.1398
		72.4840 136.0736 101.6024
		72.4840 136.0736 -100.5291
		117.8656 136.0736 -38.0665
		-74.3733 136.0736 -100.5291
		-0.9447 136.0736 -124.3876
		-86.9162 201.7508 62.9984
		31.8940 201.7510 101.6017
		105.3218 201.7507 0.5367
		31.8940 201.7510 -100.5284
		-86.9162 201.7508 -61.9250
		-21.2393 242.3409 62.9982
		-66.6211 242.3407 0.5367
		52.1885 242.3409 39.1397
		52.1885 242.3409 -38.0664
		-21.2393 242.3409 -61.9248
	}
	face 329 {
		3 V(735 748 747) M(1) UV(0.81818 1.00000 0.77273 0.92127 0.86364 0.92127)
		3 V(736 748 750) M(1) UV(0.72727 0.84254 0.68182 0.92127 0.63636 0.84254)
		3 V(735 747 752) M(1) UV(0.09091 1.00000 0.04545 0.92127 0.13636 0.92127)
		3 V(735 752 754) M(1) UV(0.27273 1.00000 0.22727 0.92127 0.31818 0.92127)
		3 V(735 754 751) M(1) UV(0.45454 1.00000 0.40909 0.92127 0.50000 0.92127)
		3 V(736 750 757) M(1) UV(0.72727 0.84254 0.63636 0.84254 0.68182 0.76381)
		3 V(737 749 759) M(1) UV(0.90909 0.84254 0.81818 0.84254 0.86364 0.76381)
		3 V(738 753 761) M(1) UV(0.18182 0.84254 0.09091 0.84254 0.13636 0.76381)
		3 V(739 755 763) M(1) UV(0.36364 0.84254 0.27273 0.84254 0.31818 0.76381)
		3 V(740 756 765) M(1) UV(0.54545 0.84254 0.45454 0.84254 0.50000 0.76381)
		3 V(736 757 760) M(1) UV(0.72727 0.84254 0.68182 0.76381 0.77273 0.76381)
		3 V(737 759 762) M(1) UV(0.90909 0.84254 0.86364 0.76381 0.95455 0.76381)
		3 V(738 761 764) M(1) UV(0.18182 0.84254 0.13636 0.76381 0.22727 0.76381)
		3 V(739 763 766) M(1) UV(0.36364 0.84254 0.31818 0.76381 0.40909 0.76381)
		3 V(740 765 758) M(1) UV(0.54545 0.84254 0.50000 0.76381 0.59091 0.76381)
		3 V(741 767 772) M(1) UV(0.81818 0.68508 0.72727 0.68508 0.77273 0.60635)
		3 V(742 768 774) M(1) UV(1.00000 0.68508 0.90909 0.68508 0.95455 0.60635)
		3 V(743 769 775) M(1) UV(0.27273 0.68508 0.18182 0.68508 0.22727 0.60635)
		3 V(744 770 776) M(1) UV(0.45454 0.68508 0.36364 0.68508 0.40909 0.60635)
		3 V(745 771 773) M(1) UV(0.63636 0.68508 0.54545 0.68508 0.59091 0.60635)
		3 V(773 776 746) M(1) UV(0.59091 0.60635 0.50000 0.60635 0.54545 0.52762)
		3 V(773 771 776) M(1) UV(0.59091 0.60635 0.54545 0.68508 0.50000 0.60635)
		3 V(771 744 776) M(1) UV(0.54545 0.68508 0.45454 0.68508 0.50000 0.60635)
		3 V(776 775 746) M(1) UV(0.40909 0.60635 0.31818 0.60635 0.36364 0.52762)
		3 V(776 770 775) M(1) UV(0.40909 0.60635 0.36364 0.68508 0.31818 0.60635)
		3 V(770 743 775) M(1) UV(0.36364 0.68508 0.27273 0.68508 0.31818 0.60635)
		3 V(775 774 746) M(1) UV(0.22727 0.60635 0.13636 0.60635 0.18182 0.52762)
		3 V(775 769 774) M(1) UV(0.22727 0.60635 0.18182 0.68508 0.13636 0.60635)
		3 V(769 742 774) M(1) UV(0.18182 0.68508 0.09091 0.68508 0.13636 0.60635)
		3 V(774 772 746) M(1) UV(0.95455 0.60635 0.86364 0.60635 0.90909 0.52762)
		3 V(774 768 772) M(1) UV(0.95455 0.60635 0.90909 0.68508 0.86364 0.60635)
		3 V(768 741 772) M(1) UV(0.90909 0.68508 0.81818 0.68508 0.86364 0.60635)
		3 V(772 773 746) M(1) UV(0.77273 0.60635 0.68182 0.60635 0.72727 0.52762)
		3 V(772 767 773) M(1) UV(0.77273 0.60635 0.72727 0.68508 0.68182 0.60635)
		3 V(767 745 773) M(1) UV(0.72727 0.68508 0.63636 0.68508 0.68182 0.60635)
		3 V(758 771 745) M(1) UV(0.59091 0.76381 0.54545 0.68508 0.63636 0.68508)
		3 V(758 765 771) M(1) UV(0.59091 0.76381 0.50000 0.76381 0.54545 0.68508)
		3 V(765 744 771) M(1) UV(0.50000 0.76381 0.45454 0.68508 0.54545 0.68508)
		3 V(766 770 744) M(1) UV(0.40909 0.76381 0.36364 0.68508 0.45454 0.68508)
		3 V(766 763 770) M(1) UV(0.40909 0.76381 0.31818 0.76381 0.36364 0.68508)
		3 V(763 743 770) M(1) UV(0.31818 0.76381 0.27273 0.68508 0.36364 0.68508)
		3 V(764 769 743) M(1) UV(0.22727 0.76381 0.18182 0.68508 0.27273 0.68508)
		3 V(764 761 769) M(1) UV(0.22727 0.76381 0.13636 0.76381 0.18182 0.68508)
		3 V(761 742 769) M(1) UV(0.13636 0.76381 0.09091 0.68508 0.18182 0.68508)
		3 V(762 768 742) M(1) UV(0.95455 0.76381 0.90909 0.68508 1.00000 0.68508)
		3 V(762 759 768) M(1) UV(0.95455 0.76381 0.86364 0.76381 0.90909 0.68508)
		3 V(759 741 768) M(1) UV(0.86364 0.76381 0.81818 0.68508 0.90909 0.68508)
		3 V(760 767 741) M(1) UV(0.77273 0.76381 0.72727 0.68508 0.81818 0.68508)
		3 V(760 757 767) M(1) UV(0.77273 0.76381 0.68182 0.76381 0.72727 0.68508)
		3 V(757 745 767) M(1) UV(0.68182 0.76381 0.63636 0.68508 0.72727 0.68508)
		3 V(765 766 744) M(1) UV(0.50000 0.76381 0.40909 0.76381 0.45454 0.68508)
		3 V(765 756 766) M(1) UV(0.50000 0.76381 0.45454 0.84254 0.40909 0.76381)
		3 V(756 739 766) M(1) UV(0.45454 0.84254 0.36364 0.84254 0.40909 0.76381)
		3 V(763 764 743) M(1) UV(0.31818 0.76381 0.22727 0.76381 0.27273 0.68508)
		3 V(763 755 764) M(1) UV(0.31818 0.76381 0.27273 0.84254 0.22727 0.76381)
		3 V(755 738 764) M(1) UV(0.27273 0.84254 0.18182 0.84254 0.22727 0.76381)
		3 V(761 762 742) M(1) UV(0.13636 0.76381 0.04545 0.76381 0.09091 0.68508)
		3 V(761 753 762) M(1) UV(0.13636 0.76381 0.09091 0.84254 0.04545 0.76381)
		3 V(753 737 762) M(1) UV(0.09091 0.84254 0.00000 0.84254 0.04545 0.76381)
		3 V(759 760 741) M(1) UV(0.86364 0.76381 0.77273 0.76381 0.81818 0.68508)
		3 V(759 749 760) M(1) UV(0.86364 0.76381 0.81818 0.84254 0.77273 0.76381)
		3 V(749 736 760) M(1) UV(0.81818 0.84254 0.72727 0.84254 0.77273 0.76381)
		3 V(757 758 745) M(1) UV(0.68182 0.76381 0.59091 0.76381 0.63636 0.68508)
		3 V(757 750 758) M(1) UV(0.68182 0.76381 0.63636 0.84254 0.59091 0.76381)
		3 V(750 740 758) M(1) UV(0.63636 0.84254 0.54545 0.84254 0.59091 0.76381)
		3 V(751 756 740) M(1) UV(0.50000 0.92127 0.45454 0.84254 0.54545 0.84254)
		3 V(751 754 756) M(1) UV(0.50000 0.92127 0.40909 0.92127 0.45454 0.84254)
		3 V(754 739 756) M(1) UV(0.40909 0.92127 0.36364 0.84254 0.45454 0.84254)
		3 V(754 755 739) M(1) UV(0.31818 0.92127 0.27273 0.84254 0.36364 0.84254)
		3 V(754 752 755) M(1) UV(0.31818 0.92127 0.22727 0.92127 0.27273 0.84254)
		3 V(752 738 755) M(1) UV(0.22727 0.92127 0.18182 0.84254 0.27273 0.84254)
		3 V(752 753 738) M(1) UV(0.13636 0.92127 0.09091 0.84254 0.18182 0.84254)
		3 V(752 747 753) M(1) UV(0.13636 0.92127 0.04545 0.92127 0.09091 0.84254)
		3 V(747 737 753) M(1) UV(0.04545 0.92127 0.00000 0.84254 0.09091 0.84254)
		3 V(750 751 740) M(1) UV(0.63636 0.84254 0.59091 0.92127 0.54545 0.84254)
		3 V(750 748 751) M(1) UV(0.63636 0.84254 0.68182 0.92127 0.59091 0.92127)
		3 V(748 735 751) M(1) UV(0.68182 0.92127 0.63636 1.00000 0.59091 0.92127)
		3 V(747 749 737) M(1) UV(0.86364 0.92127 0.81818 0.84254 0.90909 0.84254)
		3 V(747 748 749) M(1) UV(0.86364 0.92127 0.77273 0.92127 0.81818 0.84254)
		3 V(748 736 749) M(1) UV(0.77273 0.92127 0.72727 0.84254 0.81818 0.84254)
		3 V(62 251 59) M(0) UV(0.84091 0.96064 0.81818 0.92127 0.86364 0.92127)
		3 V(64 247 254) M(0) UV(0.68182 0.92127 0.65909 0.88190 0.68182 0.86960)
		3 V(73 47 69) M(0) UV(0.68182 0.84473 0.65909 0.88190 0.63636 0.84254)
		3 V(61 242 255) M(0) UV(0.04545 0.92127 0.09091 0.92127 0.09091 0.94751)
		3 V(63 84 256) M(0) UV(0.27273 1.00000 0.25000 0.96064 0.27273 0.94751)
		3 V(86 85 257) M(0) UV(0.18182 0.86878 0.13636 0.84473 0.13636 0.81712)
		3 V(226 92 89) M(0) UV(0.29545 0.80317 0.31818 0.84473 0.27273 0.84254)
		3 V(126 130 48) M(0) UV(0.50000 0.76381 0.52273 0.80536 0.50000 0.81712)
		3 V(96 221 15) M(0) UV(0.68182 0.76381 0.72727 0.79087 0.70455 0.80536)
		3 V(104 219 16) M(0) UV(0.86364 0.76381 0.90909 0.79005 0.88636 0.80317)
		3 V(118 183 215) M(0) UV(0.22727 0.76381 0.18182 0.79087 0.18182 0.76381)
		3 V(211 258 115) M(0) UV(0.36364 0.76381 0.34091 0.80536 0.31818 0.76381)
		3 V(82 131 259) M(0) UV(0.54545 0.86878 0.52273 0.80536 0.54545 0.79087)
		3 V(128 207 260) M(0) UV(0.50000 0.76381 0.54545 0.76381 0.54545 0.79087)
		3 V(99 179 49) M(0) UV(0.59091 0.76381 0.56818 0.80536 0.54545 0.79087)
		3 V(110 134 155) M(0) UV(0.81818 0.65884 0.77273 0.65802 0.79545 0.64243)
		3 V(124 143 261) M(0) UV(0.27273 0.65884 0.22727 0.68289 0.22727 0.65802)
		3 V(138 200 142) M(0) UV(0.18182 0.68508 0.22727 0.65802 0.22727 0.68289)
		3 V(168 50 165) M(0) UV(0.43182 0.64243 0.38636 0.64571 0.40909 0.60635)
		3 V(149 195 262) M(0) UV(0.54545 0.68508 0.56818 0.64571 0.59091 0.65802)
		3 V(166 194 263) M(0) UV(0.50000 0.60635 0.52273 0.56698 0.54545 0.58011)
		3 V(197 264 150) M(0) UV(0.52273 0.64571 0.56818 0.64571 0.54545 0.68508)
		3 V(167 26 196) M(0) UV(0.50000 0.60635 0.54545 0.63259 0.52273 0.64571)
		3 V(163 193 265) M(0) UV(0.31818 0.60635 0.34091 0.56698 0.36364 0.58011)
		3 V(145 199 28) M(0) UV(0.36364 0.68508 0.36364 0.63259 0.38636 0.64571)
		3 V(27 198 164) M(0) UV(0.36364 0.60635 0.34091 0.64571 0.31818 0.60635)
		3 V(161 29 201) M(0) UV(0.13636 0.60635 0.18182 0.63259 0.15909 0.64571)
		3 V(139 187 266) M(0) UV(0.18182 0.68508 0.13636 0.68508 0.13636 0.65883)
		3 V(162 202 267) M(0) UV(0.95455 0.60635 0.90909 0.60635 0.90909 0.58011)
		3 V(151 190 268) M(0) UV(0.86364 0.60635 0.88636 0.56698 0.90909 0.58011)
		3 V(160 25 189) M(0) UV(0.90909 0.52762 0.90909 0.58011 0.88636 0.56698)
		3 V(12 203 269) M(0) UV(0.95455 0.60635 0.93182 0.64571 0.90909 0.63259)
		3 V(204 31 135) M(0) UV(0.88636 0.64571 0.93182 0.64571 0.90909 0.68508)
		3 V(30 51 152) M(0) UV(0.90909 0.60635 0.88636 0.64571 0.86364 0.60635)
		3 V(111 156 270) M(0) UV(0.81818 0.65884 0.84091 0.64243 0.86364 0.65802)
		3 V(154 32 18) M(0) UV(0.86364 0.60635 0.86364 0.65802 0.84091 0.64243)
		3 V(205 191 153) M(0) UV(0.72727 0.60635 0.75000 0.56698 0.77273 0.60635)
		3 V(157 159 271) M(0) UV(0.68182 0.60635 0.70455 0.56698 0.72727 0.58011)
		3 V(3 24 19) M(0) UV(0.72727 0.52762 0.72727 0.58011 0.70455 0.56698)
		3 V(158 33 206) M(0) UV(0.68182 0.60635 0.72727 0.63259 0.70455 0.64571)
		3 V(102 192 185) M(0) UV(0.63636 0.65884 0.68182 0.65802 0.68182 0.68289)
		3 V(129 208 272) M(0) UV(0.50000 0.76381 0.52273 0.72444 0.54545 0.73757)
		3 V(127 184 209) M(0) UV(0.50000 0.76381 0.50000 0.71050 0.52273 0.72444)
		3 V(148 210 146) M(0) UV(0.40909 0.68289 0.38636 0.72444 0.36364 0.68508)
		3 V(116 212 35) M(0) UV(0.31818 0.76381 0.36364 0.73757 0.36364 0.76381)
		3 V(34 52 147) M(0) UV(0.38636 0.72444 0.34091 0.72444 0.36364 0.68508)
		3 V(114 182 213) M(0) UV(0.31818 0.76381 0.31818 0.71050 0.34091 0.72444)
		3 V(125 188 273) M(0) UV(0.27273 0.65884 0.31818 0.68289 0.31818 0.71050)
		3 V(117 214 274) M(0) UV(0.22727 0.76381 0.20455 0.72444 0.22727 0.71050)
		3 V(144 275 140) M(0) UV(0.22727 0.68289 0.20455 0.72444 0.18182 0.68508)
		3 V(123 121 53) M(0) UV(0.27273 0.65884 0.25000 0.72226 0.22727 0.71050)
		3 V(216 276 10) M(0) UV(0.18182 0.76381 0.20455 0.72444 0.22727 0.76381)
		3 V(141 36 217) M(0) UV(0.18182 0.68508 0.18182 0.73757 0.15909 0.72444)
		3 V(136 137 218) M(0) UV(0.90909 0.68508 0.95407 0.71132 0.93182 0.72444)
		3 V(8 220 277) M(0) UV(0.95455 0.76381 0.90909 0.76381 0.90909 0.73757)
		3 V(103 180 278) M(0) UV(0.86364 0.76381 0.84091 0.72226 0.86364 0.71050)
		3 V(109 107 17) M(0) UV(0.81818 0.65884 0.77273 0.71050 0.77273 0.68289)
		3 V(97 222 279) M(0) UV(0.68182 0.76381 0.70455 0.72444 0.72727 0.73757)
		3 V(95 178 223) M(0) UV(0.68182 0.76381 0.68182 0.71050 0.70455 0.72444)
		3 V(101 186 177) M(0) UV(0.63636 0.65884 0.68182 0.71050 0.65909 0.72226)
		3 V(132 133 224) M(0) UV(0.40909 0.76381 0.45454 0.73674 0.45454 0.76381)
		3 V(225 280 11) M(0) UV(0.47727 0.80317 0.45454 0.76381 0.50000 0.76381)
		3 V(119 122 281) M(0) UV(0.22727 0.76381 0.25000 0.72226 0.27273 0.73674)
		3 V(2 23 54) M(0) UV(0.27273 0.65884 0.29545 0.72226 0.27273 0.73674)
		3 V(9 227 282) M(0) UV(0.31818 0.76381 0.29545 0.80317 0.27273 0.79005)
		3 V(90 228 38) M(0) UV(0.27273 0.84254 0.27273 0.79005 0.29545 0.80317)
		3 V(37 55 120) M(0) UV(0.27273 0.76381 0.25000 0.80317 0.22727 0.76381)
		3 V(229 283 112) M(0) UV(0.09091 0.76381 0.11364 0.72444 0.13636 0.76381)
		3 V(113 39 22) M(0) UV(0.04545 0.76381 0.04593 0.81630 0.02462 0.80317)
		3 V(105 230 181) M(0) UV(0.86364 0.76381 0.81818 0.73674 0.84091 0.72226)
		3 V(106 108 231) M(0) UV(0.77273 0.76381 0.81818 0.73674 0.81818 0.76381)
		3 V(7 232 284) M(0) UV(0.86364 0.76381 0.84091 0.80317 0.81818 0.79005)
		3 V(67 233 40) M(0) UV(0.81818 0.84254 0.81818 0.79005 0.84091 0.80317)
		3 V(98 234 285) M(0) UV(0.68182 0.76381 0.63636 0.76381 0.63636 0.73674)
		3 V(71 235 41) M(0) UV(0.63636 0.84254 0.63636 0.79005 0.65909 0.80317)
		3 V(70 171 286) M(0) UV(0.63636 0.84254 0.59091 0.84473 0.59091 0.81712)
		3 V(100 42 21) M(0) UV(0.59091 0.76381 0.59091 0.81712 0.56818 0.80536)
		3 V(74 236 78) M(0) UV(0.50000 0.92127 0.50000 0.86960 0.52273 0.88519)
		3 V(93 94 287) M(0) UV(0.45454 0.84254 0.50000 0.84473 0.50000 0.86960)
		3 V(81 79 14) M(0) UV(0.54545 0.86878 0.50000 0.86960 0.50000 0.84473)
		3 V(6 238 237) M(0) UV(0.50000 0.92127 0.45454 0.89503 0.47727 0.88190)
		3 V(88 239 43) M(0) UV(0.40909 0.92127 0.45454 0.89503 0.45454 0.92127)
		3 V(44 240 91) M(0) UV(0.29545 0.88190 0.25000 0.88190 0.27273 0.84254)
		3 V(83 174 241) M(0) UV(0.22727 0.92127 0.22727 0.86960 0.25000 0.88190)
		3 V(87 176 173) M(0) UV(0.18182 0.86878 0.22727 0.86960 0.20455 0.88519)
		3 V(60 170 243) M(0) UV(0.04545 0.92127 0.04593 0.86878 0.06818 0.88190)
		3 V(68 175 169) M(0) UV(0.01515 0.84254 0.04593 0.86878 0.02462 0.88190)
		3 V(72 244 172) M(0) UV(0.63636 0.84254 0.59091 0.86960 0.59091 0.84473)
		3 V(75 80 245) M(0) UV(0.59091 0.92127 0.59091 0.86960 0.61364 0.88190)
		3 V(5 248 246) M(0) UV(0.63636 0.84254 0.63636 0.89503 0.61364 0.88190)
		3 V(65 249 288) M(0) UV(0.68182 0.92127 0.63636 0.92127 0.63636 0.89503)
		3 V(76 45 56) M(0) UV(0.59091 0.92127 0.61364 0.88190 0.63636 0.89503)
		3 V(77 46 57) M(0) UV(0.59091 0.92127 0.63636 0.92127 0.63636 0.94751)
		3 V(1 20 58) M(0) UV(0.90909 0.84254 0.88636 0.88190 0.86364 0.86878)
		3 V(252 250 4) M(0) UV(0.81818 0.92127 0.84091 0.88190 0.86364 0.92127)
		3 V(253 289 66) M(0) UV(0.79545 0.88190 0.81818 0.92127 0.77273 0.92127)
		3 V(0 290 13) M(0) UV(0.77273 0.84473 0.77273 0.86960 0.75000 0.88519)
		3 V(336 463 403) M(2) UV(0.77273 0.92127 0.81818 0.94751 0.79545 0.96064)
		3 V(457 466 348) M(2) UV(0.27273 0.92127 0.25000 0.96064 0.22727 0.92127)
		3 V(406 455 346) M(2) UV(0.47727 0.96064 0.45454 0.92127 0.50000 0.92127)
		3 V(343 342 467) M(2) UV(0.90909 0.84254 0.86364 0.84254 0.86364 0.81630)
		3 V(366 367 327) M(2) UV(0.86364 0.76381 0.88636 0.80317 0.86364 0.81630)
		3 V(355 353 372) M(2) UV(0.18182 0.86878 0.13636 0.81712 0.15909 0.80536)
		3 V(447 468 349) M(2) UV(0.11364 0.80317 0.13636 0.84473 0.09091 0.84254)
		3 V(373 376 445) M(2) UV(0.31818 0.76381 0.31818 0.81712 0.29545 0.80317)
		3 V(341 360 469) M(2) UV(0.72727 0.86878 0.70455 0.80536 0.72727 0.79087)
		3 V(414 328 377) M(2) UV(0.20455 0.80536 0.18182 0.76381 0.22727 0.76381)
		3 V(375 433 305) M(2) UV(0.31818 0.76381 0.36364 0.79087 0.34091 0.80536)
		3 V(397 329 395) M(2) UV(0.97538 0.64571 0.93182 0.64571 0.95455 0.60635)
		3 V(424 470 384) M(2) UV(0.38636 0.64571 0.40909 0.68289 0.36364 0.68508)
		3 V(364 391 418) M(2) UV(0.63636 0.65884 0.59091 0.65802 0.61364 0.64243)
		3 V(400 421 471) M(2) UV(0.50000 0.60635 0.52273 0.56698 0.54545 0.58011)
		3 V(400 471 422) M(2) UV(0.50000 0.60635 0.54545 0.58011 0.54545 0.60635)
		3 V(389 423 472) M(2) UV(0.54545 0.68508 0.52273 0.64571 0.54545 0.63259)
		3 V(401 314 330) M(2) UV(0.50000 0.60635 0.54545 0.60635 0.54545 0.63259)
		3 V(394 313 331) M(2) UV(0.36364 0.52762 0.38636 0.56698 0.36364 0.58011)
		3 V(315 332 398) M(2) UV(0.36364 0.60635 0.34091 0.64571 0.31818 0.60635)
		3 V(385 417 473) M(2) UV(0.36364 0.68508 0.31818 0.68289 0.31818 0.65802)
		3 V(425 420 399) M(2) UV(0.18182 0.60635 0.20455 0.56698 0.22727 0.60635)
		3 V(303 427 426) M(2) UV(0.22727 0.60635 0.18182 0.63259 0.18182 0.60635)
		3 V(396 316 307) M(2) UV(0.13636 0.60635 0.13636 0.65883 0.11364 0.64571)
		3 V(293 312 306) M(2) UV(0.72727 0.52762 0.72727 0.58011 0.70455 0.56698)
		3 V(393 317 428) M(2) UV(0.68182 0.60635 0.72727 0.63259 0.70455 0.64571)
		3 V(365 419 416) M(2) UV(0.63636 0.65884 0.68182 0.65802 0.68182 0.68289)
		3 V(429 363 361) M(2) UV(0.56818 0.72444 0.61364 0.72226 0.59091 0.76381)
		3 V(390 392 430) M(2) UV(0.54545 0.68508 0.59091 0.71050 0.56818 0.72444)
		3 V(296 431 474) M(2) UV(0.59091 0.76381 0.54545 0.76381 0.54545 0.73757)
		3 V(318 311 302) M(2) UV(0.52273 0.72444 0.50000 0.68289 0.54545 0.68508)
		3 V(432 475 380) M(2) UV(0.38636 0.72444 0.43182 0.72226 0.40909 0.76381)
		3 V(386 388 476) M(2) UV(0.36364 0.68508 0.40909 0.68289 0.40909 0.71050)
		3 V(387 319 434) M(2) UV(0.36364 0.68508 0.36364 0.73757 0.34091 0.72444)
		3 V(413 435 374) M(2) UV(0.29545 0.72226 0.34091 0.72444 0.31818 0.76381)
		3 V(437 436 300) M(2) UV(0.18182 0.76381 0.20455 0.72444 0.22727 0.76381)
		3 V(383 320 333) M(2) UV(0.18182 0.68508 0.20455 0.72444 0.18182 0.73757)
		3 V(321 334 301) M(2) UV(0.15909 0.72444 0.13636 0.68508 0.18182 0.68508)
		3 V(368 438 477) M(2) UV(0.77273 0.76381 0.75000 0.72444 0.77273 0.71050)
		3 V(440 439 298) M(2) UV(0.72727 0.76381 0.75000 0.72444 0.77273 0.76381)
		3 V(441 415 379) M(2) UV(0.45454 0.76381 0.47727 0.72226 0.50000 0.76381)
		3 V(381 382 442) M(2) UV(0.40909 0.76381 0.45454 0.73674 0.45454 0.76381)
		3 V(357 411 443) M(2) UV(0.45454 0.84254 0.40909 0.81712 0.43182 0.80317)
		3 V(299 446 444) M(2) UV(0.31818 0.76381 0.27273 0.79005 0.27273 0.76381)
		3 V(322 310 378) M(2) UV(0.25000 0.80317 0.20455 0.80536 0.22727 0.76381)
		3 V(351 448 323) M(2) UV(0.09091 0.84254 0.09091 0.79005 0.11364 0.80317)
		3 V(408 449 350) M(2) UV(0.04672 0.84254 0.06818 0.80317 0.09091 0.84254)
		3 V(369 371 450) M(2) UV(0.77273 0.76381 0.81818 0.73674 0.81818 0.76381)
		3 V(292 308 304) M(2) UV(0.81818 0.65884 0.81818 0.73674 0.79545 0.72226)
		3 V(452 451 297) M(2) UV(0.84091 0.80317 0.81818 0.76381 0.86364 0.76381)
		3 V(340 412 478) M(2) UV(0.72727 0.86878 0.75000 0.80536 0.77273 0.81712)
		3 V(370 324 309) M(2) UV(0.77273 0.76381 0.77273 0.81712 0.75000 0.80536)
		3 V(362 325 335) M(2) UV(0.59091 0.76381 0.63636 0.76381 0.63636 0.79005)
		3 V(362 335 453) M(2) UV(0.59091 0.76381 0.63636 0.79005 0.61364 0.80317)
		3 V(405 454 345) M(2) UV(0.59091 0.84473 0.61364 0.80317 0.63636 0.84254)
		3 V(359 479 358) M(2) UV(0.50000 0.84473 0.47727 0.88190 0.45454 0.84254)
		3 V(356 456 410) M(2) UV(0.31818 0.92127 0.31818 0.86960 0.34091 0.88519)
		3 V(407 458 347) M(2) UV(0.20455 0.88519 0.25000 0.88190 0.22727 0.92127)
		3 V(354 459 352) M(2) UV(0.13636 0.84473 0.11364 0.88190 0.09091 0.84254)
		3 V(295 461 460) M(2) UV(0.13636 0.92127 0.09091 0.89503 0.11364 0.88190)
		3 V(344 409 402) M(2) UV(0.01515 0.84254 0.04593 0.86878 0.02462 0.88190)
		3 V(464 462 294) M(2) UV(0.81818 0.92127 0.84091 0.88190 0.86364 0.92127)
		3 V(337 465 326) M(2) UV(0.77273 0.92127 0.81818 0.89503 0.81818 0.92127)
		3 V(338 339 480) M(2) UV(0.77273 0.92127 0.75000 0.88519 0.77273 0.86960)
		3 V(291 404 481) M(2) UV(0.72727 0.86878 0.77273 0.84473 0.77273 0.86960)
		3 V(698 636 547) M(3) UV(0.81818 0.92127 0.79545 0.96064 0.77273 0.92127)
		3 V(546 697 549) M(3) UV(0.68182 0.92127 0.68182 0.86960 0.70455 0.88519)
		3 V(545 700 564) M(3) UV(0.09091 1.00000 0.09091 0.94751 0.11364 0.96064)
		3 V(690 499 562) M(3) UV(0.27273 0.92127 0.25000 0.96064 0.22727 0.92127)
		3 V(569 687 500) M(3) UV(0.40909 0.92127 0.45454 0.94751 0.43182 0.96064)
		3 V(558 578 551) M(3) UV(0.68182 0.84473 0.70455 0.80536 0.72727 0.86878)
		3 V(556 684 498) M(3) UV(0.63636 0.84254 0.68182 0.81712 0.68182 0.84473)
		3 V(565 678 567) M(3) UV(0.09091 0.84254 0.13636 0.81712 0.13636 0.84473)
		3 V(574 573 701) M(3) UV(0.36364 0.86878 0.31818 0.84473 0.31818 0.81712)
		3 V(603 605 530) M(3) UV(0.50000 0.76381 0.52273 0.80536 0.50000 0.81712)
		3 V(675 702 576) M(3) UV(0.72727 0.76381 0.70455 0.80536 0.68182 0.76381)
		3 V(568 590 648) M(3) UV(0.18182 0.86878 0.18182 0.79087 0.20455 0.80536)
		3 V(669 703 587) M(3) UV(0.18182 0.76381 0.15909 0.80536 0.13636 0.76381)
		3 V(649 531 607) M(3) UV(0.38636 0.80536 0.36364 0.76381 0.40909 0.76381)
		3 V(560 606 704) M(3) UV(0.54545 0.86878 0.52273 0.80536 0.54545 0.79087)
		3 V(580 644 532) M(3) UV(0.59091 0.76381 0.56818 0.80536 0.54545 0.79087)
		3 V(616 705 594) M(3) UV(0.95328 0.68508 0.97538 0.64571 0.98485 0.68508)
		3 V(615 662 706) M(3) UV(0.90909 0.68508 0.93182 0.64571 0.95407 0.65883)
		3 V(631 533 629) M(3) UV(0.97538 0.64571 0.93182 0.64571 0.95455 0.60635)
		3 V(620 659 621) M(3) UV(0.36364 0.68508 0.40909 0.65802 0.40909 0.68289)
		3 V(657 624 622) M(3) UV(0.56818 0.64571 0.59091 0.68289 0.54545 0.68508)
		3 V(626 654 534) M(3) UV(0.59091 0.60635 0.61364 0.64243 0.59091 0.65802)
		3 V(627 535 656) M(3) UV(0.56818 0.56698 0.54545 0.58011 0.52273 0.56698)
		3 V(627 656 628) M(3) UV(0.56818 0.56698 0.52273 0.56698 0.54545 0.52762)
		3 V(623 658 707) M(3) UV(0.54545 0.68508 0.52273 0.64571 0.54545 0.63259)
		3 V(613 634 708) M(3) UV(0.45454 0.65884 0.47727 0.64243 0.50000 0.65802)
		3 V(633 514 536) M(3) UV(0.31818 0.60635 0.36364 0.60635 0.36364 0.63259)
		3 V(660 709 617) M(3) UV(0.15909 0.64571 0.20455 0.64571 0.18182 0.68508)
		3 V(596 632 651) M(3) UV(0.09091 0.68508 0.13636 0.65883 0.13636 0.68508)
		3 V(630 661 710) M(3) UV(0.95455 0.60635 0.90909 0.60635 0.90909 0.58011)
		3 V(515 537 503) M(3) UV(0.88636 0.64571 0.86364 0.65802 0.84091 0.64243)
		3 V(515 503 625) M(3) UV(0.88636 0.64571 0.84091 0.64243 0.86364 0.60635)
		3 V(614 650 663) M(3) UV(0.72727 0.68508 0.68182 0.65802 0.70455 0.64571)
		3 V(583 655 711) M(3) UV(0.63636 0.65884 0.65909 0.64243 0.68182 0.65802)
		3 V(579 664 582) M(3) UV(0.59091 0.76381 0.59091 0.71050 0.61364 0.72226)
		3 V(665 712 493) M(3) UV(0.54545 0.76381 0.56818 0.72444 0.59091 0.76381)
		3 V(666 713 604) M(3) UV(0.52273 0.72444 0.54545 0.76381 0.50000 0.76381)
		3 V(496 516 513) M(3) UV(0.54545 0.68508 0.50000 0.71050 0.50000 0.68289)
		3 V(612 610 502) M(3) UV(0.45454 0.65884 0.40909 0.71050 0.40909 0.68289)
		3 V(667 714 598) M(3) UV(0.34091 0.72444 0.36364 0.76381 0.31818 0.76381)
		3 V(597 647 715) M(3) UV(0.31818 0.76381 0.29545 0.72226 0.31818 0.71050)
		3 V(653 646 602) M(3) UV(0.31818 0.68289 0.29545 0.72226 0.27273 0.65884)
		3 V(495 517 512) M(3) UV(0.36364 0.68508 0.31818 0.71050 0.31818 0.68289)
		3 V(668 716 599) M(3) UV(0.20455 0.72444 0.25000 0.72226 0.22727 0.76381)
		3 V(618 619 717) M(3) UV(0.18182 0.68508 0.22727 0.68289 0.22727 0.71050)
		3 V(670 518 588) M(3) UV(0.15909 0.72444 0.18182 0.76381 0.13636 0.76381)
		3 V(652 718 595) M(3) UV(0.13636 0.68508 0.11364 0.72444 0.09091 0.68508)
		3 V(591 671 719) M(3) UV(0.95455 0.76381 0.93182 0.72444 0.95407 0.71132)
		3 V(494 673 672) M(3) UV(0.95455 0.76381 0.90909 0.73757 0.93182 0.72444)
		3 V(674 720 584) M(3) UV(0.75000 0.72444 0.79545 0.72226 0.77273 0.76381)
		3 V(611 721 676) M(3) UV(0.43182 0.72226 0.45454 0.73674 0.45454 0.76381)
		3 V(611 676 608) M(3) UV(0.43182 0.72226 0.45454 0.76381 0.40909 0.76381)
		3 V(609 519 538) M(3) UV(0.40909 0.76381 0.45454 0.76381 0.45454 0.79005)
		3 V(600 520 539) M(3) UV(0.22727 0.76381 0.27273 0.76381 0.27273 0.79005)
		3 V(521 540 601) M(3) UV(0.25000 0.80317 0.20455 0.80536 0.22727 0.76381)
		3 V(677 645 589) M(3) UV(0.09091 0.76381 0.11364 0.72444 0.13636 0.76381)
		3 V(487 510 501) M(3) UV(0.09091 0.68508 0.09091 0.73757 0.06818 0.72444)
		3 V(592 522 679) M(3) UV(0.04545 0.76381 0.09091 0.79005 0.06818 0.80317)
		3 V(566 642 680) M(3) UV(0.09091 0.84254 0.04593 0.81630 0.06818 0.80317)
		3 V(523 511 593) M(3) UV(0.06818 0.80317 0.02462 0.80317 0.04545 0.76381)
		3 V(586 722 585) M(3) UV(0.79545 0.72226 0.81818 0.76381 0.77273 0.76381)
		3 V(552 681 524) M(3) UV(0.81818 0.84254 0.81818 0.79005 0.84091 0.80317)
		3 V(577 682 643) M(3) UV(0.68182 0.76381 0.63636 0.73674 0.65909 0.72226)
		3 V(492 685 683) M(3) UV(0.68182 0.76381 0.63636 0.79005 0.63636 0.76381)
		3 V(555 638 723) M(3) UV(0.63636 0.84254 0.59091 0.84473 0.59091 0.81712)
		3 V(525 509 581) M(3) UV(0.61364 0.80317 0.56818 0.80536 0.59091 0.76381)
		3 V(559 686 724) M(3) UV(0.50000 0.92127 0.47727 0.88190 0.50000 0.86960)
		3 V(688 725 527) M(3) UV(0.43182 0.88190 0.45454 0.89503 0.45454 0.92127)
		3 V(688 527 570) M(3) UV(0.43182 0.88190 0.45454 0.92127 0.40909 0.92127)
		3 V(575 526 541) M(3) UV(0.45454 0.84254 0.47727 0.88190 0.45454 0.89503)
		3 V(491 528 508) M(3) UV(0.45454 0.84254 0.40909 0.86960 0.40909 0.84473)
		3 V(689 726 571) M(3) UV(0.29545 0.88190 0.34091 0.88519 0.31818 0.92127)
		3 V(486 507 542) M(3) UV(0.36364 0.86878 0.34091 0.88519 0.31818 0.86960)
		3 V(490 691 727) M(3) UV(0.31818 0.92127 0.27273 0.92127 0.27273 0.89503)
		3 V(529 692 572) M(3) UV(0.29545 0.88190 0.25000 0.88190 0.27273 0.84254)
		3 V(561 640 693) M(3) UV(0.22727 0.92127 0.22727 0.86960 0.25000 0.88190)
		3 V(563 694 641) M(3) UV(0.13636 0.92127 0.13636 0.86960 0.15909 0.88519)
		3 V(485 506 543) M(3) UV(0.18182 0.86878 0.15909 0.88519 0.13636 0.86960)
		3 V(695 728 489) M(3) UV(0.09091 0.92127 0.11364 0.88190 0.13636 0.92127)
		3 V(635 729 544) M(3) UV(0.02462 0.88190 0.06818 0.88190 0.04545 0.92127)
		3 V(557 696 730) M(3) UV(0.63636 0.84254 0.61364 0.88190 0.59091 0.86960)
		3 V(639 505 482) M(3) UV(0.61364 0.96064 0.65909 0.96064 0.63636 1.00000)
		3 V(553 554 731) M(3) UV(0.81818 0.84254 0.86364 0.84254 0.86364 0.86878)
		3 V(484 504 497) M(3) UV(0.90909 0.84254 0.86364 0.86878 0.86364 0.84254)
		3 V(699 732 488) M(3) UV(0.81818 0.92127 0.84091 0.88190 0.86364 0.92127)
		3 V(550 733 548) M(3) UV(0.75000 0.88519 0.79545 0.88190 0.77273 0.92127)
		3 V(637 734 483) M(3) UV(0.77273 0.84473 0.75000 0.88519 0.72727 0.86878)
	}
}
Eof
